trial_index,time_elapsed,rt,response,avg_frame_time,center_x,center_y,note,correct
40,80235,[666],"[""s""]",16.66638333,250,150,101,FALSE
41,81243,"[637,638]","[""a"",""s""]",16.66684746,250,150,1100,TRUE
42,82252,"[461,461]","[""d"",""f""]",16.66706667,250,150,11,TRUE
43,83261,"[595,617,617]","[""f"",""a"",""d""]",16.6679322,250,150,1011,TRUE
44,84268,[463],"[""s""]",16.66686667,250,150,100,TRUE
45,85276,[622],"[""s""]",16.66676271,250,150,100,TRUE
46,86283,"[465,465]","[""d"",""f""]",16.66686441,250,150,11,TRUE
47,87285,"[376,400]","[""d"",""s""]",16.66736667,250,150,100,FALSE
48,88292,"[456,456]","[""s"",""f""]",16.66728814,250,150,101,TRUE
49,89300,"[467,467,488]","[""a"",""s"",""f""]",16.66577966,250,150,1101,TRUE
50,90302,"[409,409]","[""a"",""s""]",16.66688333,250,150,1100,TRUE
51,91307,"[577,577,598]","[""d"",""f"",""a""]",16.66608475,250,150,1011,TRUE
52,92317,[441],"[""a""]",16.66725424,250,150,1000,TRUE
53,93319,"[390,414]","[""d"",""s""]",16.66758333,250,150,10,FALSE
54,94324,"[462,462]","[""a"",""d""]",16.667,250,150,1010,TRUE
55,95332,"[434,457,457]","[""d"",""a"",""f""]",16.66710169,250,150,1101,FALSE
56,96335,[514],"[""s""]",16.66676667,250,150,100,TRUE
57,97339,"[470,470]","[""s"",""d""]",16.66694915,250,150,110,TRUE
58,98348,"[489,513,513]","[""a"",""d"",""f""]",16.66677966,250,150,1011,TRUE
59,99352,"[505,505]","[""a"",""f""]",16.66651667,250,150,1001,TRUE
60,100357,"[517,518,518]","[""a"",""d"",""f""]",16.6670678,250,150,1011,TRUE
61,101363,"[943,968]","[""a"",""f""]",16.66647458,250,150,110,FALSE
62,102369,"[785,785]","[""a"",""s""]",16.66555,250,150,11,FALSE
63,103372,"[701,723]","[""d"",""f""]",16.66725424,250,150,1100,FALSE
64,104380,[],[],16.66674576,250,150,1010,FALSE
65,105386,[128],"[""f""]",16.66783333,250,150,110,FALSE
66,106388,[],[],16.66747458,250,150,1001,FALSE
67,107395,[],[],16.66649153,250,150,1000,FALSE
68,108402,[],[],16.66716667,250,150,1000,FALSE
69,109404,[],[],16.66828814,250,150,10,FALSE
70,110412,[],[],16.66827119,250,150,11,FALSE
71,111419,[],[],16.6672,250,150,1110,FALSE
72,112428,"[481,482,482]","[""a"",""d"",""f""]",16.6670339,250,150,1011,TRUE
73,113436,[432],"[""d""]",16.66525,250,150,10,TRUE
74,114444,"[400,400]","[""d"",""f""]",16.66676271,250,150,11,TRUE
75,115451,"[386,474]","[""d"",""s""]",16.66557627,250,150,100,FALSE
76,116453,"[674,761,785,890]","[""a"",""s"",""d"",""f""]",16.66833333,250,150,101,FALSE
77,117460,"[929,929]","[""a"",""d""]",16.66820339,250,150,1010,TRUE
78,118468,"[617,617,617]","[""s"",""d"",""f""]",16.66867797,250,150,111,TRUE
79,119469,"[508,508,528]","[""d"",""f"",""s""]",16.66806667,250,150,111,TRUE
80,120476,[446],"[""d""]",16.66508475,250,150,10,TRUE
81,121485,"[403,425]","[""s"",""a""]",16.66754237,250,150,1100,TRUE
82,122486,"[455,455]","[""a"",""f""]",16.66703333,250,150,1001,TRUE
83,123492,"[567,567,567]","[""a"",""s"",""f""]",16.667,250,150,1101,TRUE
84,124494,"[640,912]","[""f"",""s""]",16.66837288,250,150,101,TRUE
85,125500,[],[],16.66722034,250,150,100,FALSE
86,126508,[126],"[""s""]",16.66836667,250,150,1100,FALSE
87,127516,"[17,58]","[""a"",""s""]",16.66622034,250,150,111,FALSE
88,128520,"[48,72]","[""d"",""f""]",16.66723333,250,150,10,FALSE
89,129524,"[612,612,651]","[""a"",""s"",""f""]",16.66718644,250,150,1101,TRUE
90,130532,"[681,681]","[""s"",""d""]",16.66489831,250,150,110,TRUE
91,131536,[555],"[""d""]",16.66551667,250,150,10,TRUE
92,132540,"[429,516]","[""d"",""f""]",16.6669661,250,150,11,TRUE
93,133545,[538],"[""a""]",16.66840678,250,150,110,FALSE
94,134549,[794],"[""a""]",16.66720339,250,150,1000,TRUE
95,135553,[520],"[""f""]",16.66838333,250,150,1,TRUE
96,136556,"[515,540]","[""a"",""d""]",16.66538983,250,150,1010,TRUE
97,137565,[496],"[""d""]",16.66857627,250,150,10,TRUE
98,138570,"[562,562,584]","[""a"",""s"",""d""]",16.66833333,250,150,1110,TRUE
99,139572,"[501,501,501]","[""a"",""d"",""f""]",16.66644068,250,150,1011,TRUE
100,140581,"[728,728,912,952]","[""d"",""f"",""d"",""f""]",16.66569492,250,150,100,FALSE
101,141587,"[121,143]","[""d"",""f""]",16.66806667,250,150,111,FALSE
102,142589,"[546,547,765,765]","[""d"",""f"",""d"",""f""]",16.66683051,250,150,110,FALSE
103,143596,"[664,681,864,864]","[""d"",""a"",""a"",""d""]",16.66566102,250,150,1010,FALSE
104,144603,[984],"[""d""]",16.66728333,250,150,10,TRUE
105,145612,"[594,594,594,714,715,715]","[""a"",""s"",""f"",""a"",""s"",""f""]",16.66666102,250,150,1101,FALSE
106,146620,"[642,642,663,785,808,808]","[""s"",""d"",""a"",""d"",""a"",""s""]",16.6656,250,150,1110,FALSE
107,147628,"[706,706,825,849]","[""s"",""d"",""d"",""s""]",16.66581356,250,150,110,FALSE
108,148637,"[697,697,720,840,865,865]","[""s"",""d"",""a"",""d"",""a"",""s""]",16.66691667,250,150,1110,FALSE
109,149641,"[657,657,657,799,823,823]","[""s"",""d"",""f"",""d"",""s"",""f""]",16.66698305,250,150,111,FALSE
110,150644,"[717,717,717,854,854,854]","[""a"",""s"",""d"",""a"",""s"",""d""]",16.66688136,250,150,1110,FALSE
111,151652,"[807,831]","[""d"",""a""]",16.66728814,250,150,1010,TRUE
112,152653,"[627,627,648,913,913,936]","[""s"",""d"",""a"",""s"",""d"",""a""]",16.66561667,250,150,1110,FALSE
113,153661,"[831,849,850]","[""a"",""d"",""f""]",16.66637288,250,150,1011,TRUE
114,154668,[655],"[""f""]",16.66688136,250,150,1,TRUE
115,155670,"[569,569]","[""a"",""f""]",16.66695,250,150,1001,TRUE
116,156676,[429],"[""s""]",16.66535593,250,150,100,TRUE
117,157684,[],[],16.66538983,250,150,100,FALSE
118,158687,"[25,129]","[""d"",""d""]",16.66646667,250,150,100,FALSE
119,159692,"[85,534,678,839]","[""d"",""d"",""d"",""d""]",16.66645763,250,150,1,FALSE
120,160701,"[32,642,643]","[""d"",""a"",""s""]",16.66733898,250,150,1110,TRUE
121,161704,"[480,480,498,680,680,680]","[""a"",""f"",""d"",""a"",""d"",""f""]",16.66703333,250,150,1011,FALSE
122,162708,"[615,775]","[""s"",""s""]",16.66720339,250,150,100,FALSE
123,163716,"[611,611,792]","[""a"",""f"",""f""]",16.66718644,250,150,1001,FALSE
124,164720,"[658,658,800,819]","[""a"",""s"",""a"",""s""]",16.66561667,250,150,1100,FALSE
125,165725,"[717,717,741]","[""a"",""s"",""f""]",16.6670678,250,150,1101,TRUE
126,166732,"[513,513,513]","[""a"",""d"",""f""]",16.66584746,250,150,1011,TRUE
127,167733,"[449,449,489]","[""a"",""s"",""d""]",16.66667797,250,150,1100,FALSE
128,168737,"[456,475,475]","[""d"",""s"",""f""]",16.66743333,250,150,110,FALSE
129,169740,[530],"[""s""]",16.66610169,250,150,100,TRUE
130,170748,"[489,512]","[""a"",""f""]",16.66688136,250,150,1001,TRUE
131,171754,"[551,575]","[""f"",""s""]",16.66735,250,150,101,TRUE
132,172756,"[525,525]","[""a"",""f""]",16.66689831,250,150,1001,TRUE
133,173764,"[466,466]","[""s"",""f""]",16.66742373,250,150,101,TRUE
134,174770,"[489,511]","[""f"",""d""]",16.66728814,250,150,11,TRUE
135,175771,"[428,428]","[""s"",""d""]",16.66766667,250,150,110,TRUE
136,176780,[427],"[""s""]",16.66528814,250,150,100,TRUE
137,177787,"[400,424]","[""s"",""f""]",16.66528333,250,150,101,TRUE
138,178794,"[546,570,570]","[""s"",""a"",""f""]",16.66716949,250,150,1101,TRUE
139,179796,"[537,561]","[""a"",""s""]",16.66649153,250,150,1100,TRUE
140,180804,"[449,449,464]","[""d"",""f"",""a""]",16.66746667,250,150,1011,TRUE
141,181813,[417],"[""s""]",16.66832203,250,150,100,TRUE
142,182820,"[471,472,472]","[""a"",""d"",""f""]",16.66881356,250,150,1011,TRUE
143,183821,"[514,514]","[""s"",""f""]",16.6681,250,150,101,TRUE
144,184827,"[496,496]","[""a"",""f""]",16.66701695,250,150,1001,TRUE
145,185836,"[433,451]","[""a"",""s""]",16.66661017,250,150,1100,TRUE
146,186837,"[424,442]","[""f"",""a""]",16.66826667,250,150,1,FALSE
147,187843,[478],"[""s""]",16.66684746,250,150,100,TRUE
148,188852,"[560,579,723]","[""a"",""s"",""a""]",16.66694915,250,150,1100,FALSE
149,189854,"[706,831]","[""s"",""s""]",16.66503333,250,150,100,FALSE
150,190860,"[569,590]","[""a"",""s""]",16.66711864,250,150,1100,TRUE
151,191869,"[505,505]","[""a"",""f""]",16.66730508,250,150,1010,FALSE
152,192870,"[527,551]","[""a"",""s""]",16.66631667,250,150,1100,TRUE
153,193876,"[767,832]","[""a"",""f""]",16.66711864,250,150,1001,TRUE
154,194883,"[824,864]","[""a"",""s""]",16.66649153,250,150,1100,TRUE
155,195887,[681],"[""s""]",16.6673,250,150,1010,FALSE
156,196891,"[631,701]","[""d"",""f""]",16.66789831,250,150,11,TRUE
157,197900,"[482,593]","[""a"",""f""]",16.66691525,250,150,1001,TRUE
158,198904,[634],"[""s""]",16.66565,250,150,100,TRUE
159,199908,"[740,759,868]","[""a"",""s"",""f""]",16.66632203,250,150,1101,TRUE
160,200916,"[691,692]","[""s"",""f""]",16.66677966,250,150,101,TRUE
161,201921,[466],"[""a""]",16.66625,250,150,1000,TRUE
162,202925,[686],"[""d""]",16.66632203,250,150,10,TRUE
163,203938,[],[],16.6667,250,150,10,FALSE
164,204940,"[100,659]","[""d"",""s""]",16.66608475,250,150,100,FALSE
165,205947,[448],"[""a""]",16.66713559,250,150,1000,TRUE
166,206954,"[496,497,497]","[""a"",""d"",""f""]",16.66826667,250,150,1011,TRUE
167,207956,"[505,545]","[""s"",""a""]",16.66647458,250,150,1100,TRUE
168,208965,[689],"[""s""]",16.66732203,250,150,100,TRUE
169,209971,"[558,582,582]","[""f"",""a"",""d""]",16.66706667,250,150,1011,TRUE
170,210980,[433],"[""f""]",16.66777966,250,150,1,TRUE
171,211987,"[417,504]","[""f"",""d""]",16.66625424,250,150,10,FALSE
172,212988,"[738,803]","[""a"",""f""]",16.6671,250,150,1001,TRUE
173,213996,[],[],16.66877966,250,150,1010,FALSE
174,215004,"[97,217,240]","[""s"",""d"",""a""]",16.66826667,250,150,10,FALSE
175,216011,"[846,926]","[""s"",""a""]",16.66557627,250,150,1000,FALSE
176,217019,[859],"[""s""]",16.66869492,250,150,1011,FALSE
177,218021,"[49,49]","[""a"",""d""]",16.6676,250,150,1000,FALSE
178,219022,"[913,959]","[""a"",""s""]",16.66727119,250,150,11,FALSE
179,220027,"[136,136]","[""d"",""f""]",16.66716949,250,150,1010,FALSE
180,221035,[],[],16.66689831,250,150,1001,FALSE
181,222038,"[674,697,787,787]","[""s"",""a"",""d"",""f""]",16.66493333,250,150,11,FALSE
182,223044,"[953,953,974]","[""a"",""s"",""f""]",16.66701695,250,150,10,FALSE
183,224052,[218],"[""d""]",16.6660339,250,150,111,FALSE
184,225061,"[570,570,570]","[""a"",""s"",""f""]",16.6656,250,150,1101,TRUE
185,226068,"[463,487,528]","[""a"",""f"",""s""]",16.66650847,250,150,1101,TRUE
186,227071,[455],"[""s""]",16.6674,250,150,100,TRUE
187,228076,"[486,509]","[""d"",""a""]",16.66838983,250,150,1010,TRUE
188,229084,"[408,409]","[""a"",""d""]",16.66544068,250,150,10,FALSE
189,230088,"[465,465]","[""d"",""f""]",16.66638333,250,150,11,TRUE
190,231092,"[445,445]","[""s"",""f""]",16.66710169,250,150,101,TRUE
191,232100,"[495,520,520]","[""f"",""a"",""d""]",16.66727119,250,150,1011,TRUE
192,233105,"[497,497]","[""d"",""f""]",16.66688333,250,150,11,TRUE
193,234108,[436],"[""f""]",16.66777966,250,150,1,TRUE
194,235116,"[410,433]","[""a"",""f""]",16.66701695,250,150,1000,FALSE
195,236122,"[544,544,545]","[""a"",""d"",""f""]",16.66585,250,150,1011,TRUE
196,237125,[523],"[""f""]",16.66710169,250,150,1,TRUE
197,238132,[480],"[""a""]",16.66645763,250,150,1000,TRUE
198,239139,"[433,456]","[""s"",""a""]",16.667,250,150,1100,TRUE
199,240140,[474],"[""s""]",16.66654237,250,150,100,TRUE
200,241148,"[394,417,417]","[""a"",""d"",""f""]",16.6659661,250,150,1011,TRUE
201,242155,"[443,512]","[""s"",""d""]",16.66691667,250,150,110,TRUE
202,243164,"[576,594,640]","[""a"",""s"",""f""]",16.66545763,250,150,1101,TRUE
203,244172,"[569,591]","[""f"",""s""]",16.66543333,250,150,101,TRUE
204,245181,"[448,472]","[""a"",""f""]",16.66694915,250,150,1001,TRUE
205,246189,"[400,440,527,570,680]","[""s"",""a"",""d"",""f"",""s""]",16.66823333,250,150,1101,FALSE
206,247196,"[601,601,624]","[""a"",""d"",""s""]",16.66711864,250,150,1110,TRUE
207,248205,"[475,476,497]","[""a"",""f"",""d""]",16.66698305,250,150,1011,TRUE
208,249206,"[489,489,552]","[""a"",""s"",""d""]",16.66851667,250,150,1110,TRUE
209,250212,"[527,527,527]","[""a"",""d"",""f""]",16.66564407,250,150,1011,TRUE
210,251217,"[577,601]","[""a"",""d""]",16.66730508,250,150,1010,TRUE
211,252220,[475],"[""s""]",16.66715254,250,150,100,TRUE
212,253222,"[472,472,488]","[""s"",""f"",""d""]",16.66615,250,150,111,TRUE
213,254229,"[469,488,488]","[""a"",""s"",""f""]",16.66561017,250,150,1101,TRUE
214,255237,[440],"[""f""]",16.66683051,250,150,1,TRUE
215,256239,"[416,416]","[""a"",""s""]",16.66698333,250,150,1100,TRUE
216,257245,"[391,413]","[""s"",""a""]",16.66701695,250,150,1100,TRUE
217,258253,[480],"[""a""]",16.66601695,250,150,1000,TRUE
218,259256,"[416,416]","[""a"",""f""]",16.66693333,250,150,1001,TRUE
219,260264,"[453,573]","[""f"",""d""]",16.66694915,250,150,10,FALSE
220,261269,[483],"[""a""]",16.66838983,250,150,1000,TRUE
221,262272,"[439,456]","[""a"",""d""]",16.66698333,250,150,10,FALSE
222,263277,[437],"[""f""]",16.66881356,250,150,1,TRUE
223,264284,[384],"[""d""]",16.667,250,150,10,TRUE
224,265289,"[360,378]","[""f"",""d""]",16.66585,250,150,11,TRUE
225,266293,"[484,508]","[""d"",""a""]",16.66532203,250,150,1010,TRUE
226,267300,"[479,503]","[""f"",""d""]",16.66664407,250,150,11,TRUE
227,268306,"[433,433]","[""d"",""f""]",16.66725,250,150,11,TRUE
228,269308,"[443,443]","[""a"",""f""]",16.66683051,250,150,1001,TRUE
229,270317,[401],"[""s""]",16.66745763,250,150,100,TRUE
230,271323,"[425,682]","[""d"",""s""]",16.66711667,250,150,100,FALSE
231,272324,[602],"[""s""]",16.66720339,250,150,100,TRUE
232,273333,"[484,484]","[""a"",""d""]",16.66732203,250,150,1010,TRUE
233,274339,[415],"[""s""]",16.66686441,250,150,100,TRUE
234,275340,"[369,387,409]","[""s"",""f"",""d""]",16.66695,250,150,111,TRUE
235,276349,"[489,507,507]","[""f"",""a"",""d""]",16.66828814,250,150,1011,TRUE
236,277356,[384],"[""s""]",16.66755,250,150,100,TRUE
237,278364,"[433,449]","[""s"",""a""]",16.66525424,250,150,1100,TRUE
238,279372,"[465,483,483]","[""a"",""d"",""f""]",16.66727119,250,150,1010,FALSE
239,280373,"[459,480]","[""d"",""s""]",16.66873333,250,150,110,TRUE
240,281380,"[458,505,505]","[""a"",""s"",""d""]",16.66801695,250,150,1110,TRUE
241,282388,"[537,537]","[""a"",""f""]",16.66754237,250,150,1001,TRUE
242,283389,"[522,544]","[""a"",""d""]",16.66648333,250,150,1010,TRUE
243,284396,"[471,488]","[""s"",""a""]",16.66823729,250,150,1100,TRUE
244,285404,"[465,465,489]","[""d"",""f"",""s""]",16.66669492,250,150,111,TRUE
245,286406,[456],"[""a""]",16.66696667,250,150,1000,TRUE
246,287412,"[529,529,614]","[""a"",""d"",""f""]",16.66681356,250,150,1011,TRUE
247,288420,"[609,632,650]","[""f"",""s"",""d""]",16.66713559,250,150,111,TRUE
248,289423,"[527,552,552]","[""d"",""a"",""f""]",16.66891667,250,150,1011,TRUE
249,290428,[465],"[""s""]",16.66677966,250,150,100,TRUE
250,292698,2270,0,,,,,
251,293700,[],[],16.6669322,250,150,0,
252,294706,"[501,501]","[""a"",""f""]",16.667,250,150,1001,TRUE
253,295708,"[471,471,495]","[""a"",""f"",""d""]",16.66762712,250,150,1010,FALSE
254,296715,"[453,453,517]","[""s"",""d"",""a""]",16.66688136,250,150,1110,TRUE
255,297722,"[657,681,721]","[""s"",""a"",""f""]",16.66608333,250,150,1101,TRUE
256,298725,[601],"[""a""]",16.6669322,250,150,1000,TRUE
257,299732,"[424,446,470]","[""s"",""a"",""d""]",16.66677966,250,150,1110,TRUE
258,300739,"[497,514,560]","[""d"",""a"",""f""]",16.66716667,250,150,1011,TRUE
259,301749,[464],"[""s""]",16.6669322,250,150,100,TRUE
260,302755,"[392,415]","[""a"",""s""]",16.66732203,250,150,1000,FALSE
261,303756,"[369,408]","[""f"",""d""]",16.66685,250,150,11,TRUE
262,304764,"[441,441]","[""a"",""d""]",16.66715254,250,150,1010,TRUE
263,305772,[392],"[""s""]",16.66886441,250,150,100,TRUE
264,306773,"[417,441]","[""a"",""s""]",16.6689,250,150,1100,TRUE
265,307779,"[455,455,478]","[""s"",""d"",""f""]",16.66784746,250,150,111,TRUE
266,308788,"[489,506,529]","[""f"",""d"",""s""]",16.66642373,250,150,111,TRUE
267,309789,[480],"[""a""]",16.66868333,250,150,1000,TRUE
268,310796,"[463,481,567,591]","[""a"",""d"",""s"",""f""]",16.66681356,250,150,1101,FALSE
269,311803,[649],"[""s""]",16.66618644,250,150,100,TRUE
270,312806,"[504,504]","[""s"",""d""]",16.66826667,250,150,110,TRUE
271,313812,"[479,502]","[""d"",""f""]",16.66537288,250,150,11,TRUE
272,314819,[416],"[""s""]",16.66691525,250,150,100,TRUE
273,315823,"[521,546,546]","[""f"",""a"",""d""]",16.667,250,150,1011,TRUE
274,316827,[518],"[""d""]",16.66611864,250,150,10,TRUE
275,317837,"[508,529,553]","[""f"",""d"",""a""]",16.66677966,250,150,1011,TRUE
276,318839,"[537,537]","[""s"",""f""]",16.66591667,250,150,101,TRUE
277,319844,"[438,460,484]","[""d"",""f"",""s""]",16.6669322,250,150,111,TRUE
278,320852,"[513,513,536]","[""a"",""f"",""d""]",16.668,250,150,1011,TRUE
279,321856,"[450,450]","[""a"",""s""]",16.66696667,250,150,1100,TRUE
280,322859,"[445,468]","[""a"",""s""]",16.66720339,250,150,1100,TRUE
281,323867,"[553,577,641]","[""a"",""s"",""f""]",16.66769492,250,150,1101,TRUE
282,324873,"[536,536]","[""s"",""d""]",16.66556667,250,150,110,TRUE
283,325876,"[452,495]","[""s"",""d""]",16.66652542,250,150,110,TRUE
284,326884,[503],"[""s""]",16.66677966,250,150,100,TRUE
285,327890,"[505,505,527]","[""a"",""f"",""s""]",16.6666,250,150,1101,TRUE
286,328891,"[497,498,521]","[""s"",""f"",""d""]",16.66674576,250,150,111,TRUE
287,329900,"[441,441,464]","[""a"",""d"",""s""]",16.66608475,250,150,1110,TRUE
288,330906,"[433,456]","[""f"",""a""]",16.66718644,250,150,1001,TRUE
289,331907,"[466,467,491,642]","[""a"",""f"",""s"",""s""]",16.66608333,250,150,101,FALSE
290,332915,[641],"[""s""]",16.66727119,250,150,100,TRUE
291,333916,"[491,491]","[""d"",""f""]",16.66728814,250,150,11,TRUE
292,334923,"[433,433]","[""d"",""f""]",16.66696667,250,150,11,TRUE
293,335932,"[513,538,538]","[""f"",""s"",""d""]",16.66538983,250,150,111,TRUE
294,336940,[463],"[""d""]",16.66725,250,150,10,TRUE
295,337947,"[489,513,513]","[""f"",""a"",""s""]",16.66815254,250,150,1101,TRUE
296,338956,"[602,602,602]","[""a"",""d"",""f""]",16.66689831,250,150,1011,TRUE
297,339957,"[512,536,537]","[""f"",""s"",""d""]",16.66833333,250,150,111,TRUE
298,340964,"[698,698]","[""a"",""d""]",16.66533898,250,150,1010,TRUE
299,341972,"[504,504,527]","[""d"",""f"",""s""]",16.66671186,250,150,111,TRUE
300,342973,"[513,537,537]","[""f"",""a"",""d""]",16.66853333,250,150,1011,TRUE
301,343980,[494],"[""a""]",16.66694915,250,150,1000,TRUE
302,344987,[448],"[""d""]",16.66879661,250,150,10,TRUE
303,345990,"[490,512,961]","[""a"",""d"",""s""]",16.6678,250,150,1110,TRUE
304,346995,"[654,678,678]","[""d"",""s"",""f""]",16.66708475,250,150,111,TRUE
305,348003,[953],"[""a""]",16.6670339,250,150,1101,FALSE
306,349007,"[240,865]","[""s"",""d""]",16.668,250,150,111,FALSE
307,350013,"[29,53]","[""f"",""d""]",16.66683051,250,150,1010,FALSE
308,351019,"[960,983,984]","[""d"",""a"",""f""]",16.66515254,250,150,1011,TRUE
309,352023,[633],"[""s""]",16.66755,250,150,100,TRUE
310,353028,[509],"[""s""]",16.66774576,250,150,100,TRUE
311,354036,[473],"[""d""]",16.66769492,250,150,10,TRUE
312,355040,"[673,673,754]","[""a"",""s"",""d""]",16.66661667,250,150,1110,TRUE
313,356044,"[746,795,899]","[""s"",""d"",""f""]",16.66528814,250,150,111,TRUE
314,357049,"[665,665,665]","[""a"",""d"",""f""]",16.66625424,250,150,1011,TRUE
315,358052,[580],"[""f""]",16.66576271,250,150,1,TRUE
316,359057,[435],"[""d""]",16.66722034,250,150,10,TRUE
317,360058,"[578,643,682]","[""a"",""s"",""d""]",16.667,250,150,1110,TRUE
318,361061,"[755,773]","[""a"",""f""]",16.6670678,250,150,1001,TRUE
319,362068,"[800,887]","[""a"",""d""]",16.66588136,250,150,1010,TRUE
320,363074,[],[],16.66506667,250,150,1010,FALSE
321,364076,"[203,650]","[""d"",""s""]",16.66850847,250,150,110,TRUE
322,365085,"[507,528]","[""f"",""a""]",16.66701695,250,150,1001,TRUE
323,366091,"[575,576,591]","[""a"",""d"",""s""]",16.66686667,250,150,1100,FALSE
324,367093,"[514,514]","[""s"",""f""]",16.66701695,250,150,101,TRUE
325,368100,[424],"[""s""]",16.66494915,250,150,100,TRUE
326,369108,"[488,488]","[""a"",""s""]",16.66701667,250,150,1100,TRUE
327,370117,"[515,538,538]","[""f"",""a"",""d""]",16.66701695,250,150,1011,TRUE
328,371124,[449],"[""a""]",16.66653333,250,150,1000,TRUE
329,372132,"[464,482]","[""s"",""d""]",16.66844068,250,150,110,TRUE
330,373140,"[545,568,977]","[""s"",""d"",""f""]",16.66823729,250,150,111,TRUE
331,374141,"[760,760]","[""d"",""f""]",16.66656667,250,150,11,TRUE
332,375148,"[562,562]","[""a"",""f""]",16.66701695,250,150,1001,TRUE
333,376156,[457],"[""a""]",16.66691525,250,150,1000,TRUE
334,377158,"[488,488]","[""s"",""f""]",16.66806667,250,150,101,TRUE
335,378164,"[638,638,662]","[""s"",""f"",""a""]",16.66664407,250,150,1101,TRUE
336,379172,"[557,557,557]","[""a"",""d"",""f""]",16.66671186,250,150,1011,TRUE
337,380175,"[497,497,514]","[""a"",""s"",""d""]",16.66693333,250,150,1110,TRUE
338,381180,"[456,478]","[""d"",""s""]",16.668,250,150,110,TRUE
339,382189,"[530,530,553]","[""d"",""f"",""a""]",16.66830508,250,150,1011,TRUE
340,383191,"[505,505]","[""s"",""d""]",16.66748333,250,150,110,TRUE
341,384196,"[463,463]","[""a"",""f""]",16.66686441,250,150,1001,TRUE
342,385204,"[457,498]","[""a"",""s""]",16.66491525,250,150,1100,TRUE
343,386208,[417],"[""f""]",16.66693333,250,150,1,TRUE
344,387213,[468],"[""a""]",16.667,250,150,1000,TRUE
345,388221,[481],"[""f""]",16.66557627,250,150,1,TRUE
346,389225,"[534,551]","[""f"",""s""]",16.66671667,250,150,101,TRUE
347,390228,"[491,515]","[""f"",""s""]",16.66691525,250,150,101,TRUE
348,391237,"[488,488,504]","[""a"",""s"",""d""]",16.66866102,250,150,1110,TRUE
349,392242,[504],"[""a""]",16.6683,250,150,1000,TRUE
350,393245,[459],"[""d""]",16.66786441,250,150,10,TRUE
351,394252,[473],"[""a""]",16.66689831,250,150,1000,TRUE
352,395258,[432],"[""a""]",16.66659322,250,150,1000,TRUE
353,396261,[290],"[""a""]",16.66695,250,150,1000,TRUE
354,397268,"[512,531]","[""a"",""f""]",16.66623729,250,150,1001,TRUE
355,398275,[409],"[""a""]",16.66671667,250,150,1000,TRUE
356,399276,"[475,475,498]","[""s"",""f"",""d""]",16.66455932,250,150,111,TRUE
357,400284,[489],"[""f""]",16.6670678,250,150,1,TRUE
358,401292,"[466,466]","[""a"",""f""]",16.66695,250,150,1001,TRUE
359,402300,"[474,474]","[""a"",""s""]",16.66881356,250,150,1100,TRUE
360,403308,[423],"[""f""]",16.66698333,250,150,1,TRUE
361,404316,[448],"[""d""]",16.66689831,250,150,10,TRUE
362,405325,[458],"[""d""]",16.66681356,250,150,10,TRUE
363,406325,"[335,439]","[""a"",""s""]",16.66751667,250,150,100,FALSE
364,407333,"[435,435]","[""a"",""s""]",16.66886441,250,150,1100,TRUE
365,408340,"[521,521]","[""a"",""d""]",16.66694915,250,150,1010,TRUE
366,409342,[456],"[""a""]",16.66881667,250,150,1000,TRUE
367,410349,"[464,464,895]","[""a"",""s"",""d""]",16.66808475,250,150,1110,TRUE
368,411357,[576],"[""f""]",16.66691525,250,150,1,TRUE
369,412358,"[480,480]","[""s"",""f""]",16.66618333,250,150,101,TRUE
370,413365,"[481,503]","[""s"",""a""]",16.66767797,250,150,1100,TRUE
371,414375,[553],"[""d""]",16.66656667,250,150,10,TRUE
372,415380,"[596,621]","[""d"",""a""]",16.66689831,250,150,1010,TRUE
373,416390,"[505,505]","[""s"",""d""]",16.66830508,250,150,110,TRUE
374,417392,"[607,631]","[""d"",""a""]",16.66855,250,150,1010,TRUE
375,418398,"[531,551,731]","[""f"",""d"",""d""]",16.66662712,250,150,10,FALSE
376,419405,"[606,624,624]","[""f"",""a"",""d""]",16.66749153,250,150,1011,TRUE
377,420409,"[482,482]","[""d"",""f""]",16.66835,250,150,11,TRUE
378,421412,"[455,455]","[""d"",""f""]",16.66688136,250,150,11,TRUE
379,422421,"[484,529,553]","[""s"",""d"",""a""]",16.66547458,250,150,1110,TRUE
380,423426,[520],"[""f""]",16.66563333,250,150,1,TRUE
381,424428,"[428,428,452]","[""s"",""d"",""a""]",16.6669661,250,150,1110,TRUE
382,425437,"[520,538]","[""f"",""a""]",16.66557627,250,150,1011,FALSE
383,426443,[1],"[""d""]",16.66711667,250,150,10,TRUE
384,427445,"[84,571,595,595]","[""d"",""d"",""a"",""f""]",16.66686441,250,150,1001,FALSE
385,428453,"[496,496,515]","[""a"",""f"",""d""]",16.66679661,250,150,1011,TRUE
386,429459,"[487,512]","[""s"",""f""]",16.66731667,250,150,101,TRUE
387,430468,"[466,490,572]","[""a"",""s"",""d""]",16.66572881,250,150,1110,TRUE
388,431476,"[456,480]","[""d"",""f""]",16.66821667,250,150,11,TRUE
389,432486,"[457,522]","[""d"",""s""]",16.66842373,250,150,110,TRUE
390,433493,"[583,607]","[""d"",""a""]",16.6667,250,150,1010,TRUE
391,434502,"[602,602,602]","[""a"",""d"",""f""]",16.66674576,250,150,1011,TRUE
392,435509,[504],"[""a""]",16.66853333,250,150,1000,TRUE
393,436518,"[456,456]","[""a"",""d""]",16.66538983,250,150,1010,TRUE
394,437525,"[450,471]","[""s"",""d""]",16.66683051,250,150,110,TRUE
395,438526,[537],"[""s""]",16.6676,250,150,100,TRUE
396,439533,"[519,602]","[""a"",""f""]",16.66654237,250,150,1001,TRUE
397,440540,[457],"[""s""]",16.66766102,250,150,100,TRUE
398,441543,"[489,507,507]","[""d"",""a"",""f""]",16.66813333,250,150,1011,TRUE
399,442548,"[542,542]","[""s"",""d""]",16.66694915,250,150,110,TRUE
400,443556,"[514,514]","[""a"",""f""]",16.66681356,250,150,1001,TRUE
401,444560,"[443,465]","[""f"",""d""]",16.66695,250,150,11,TRUE
402,445565,"[421,510]","[""d"",""s""]",16.66555932,250,150,110,TRUE
403,446573,[481],"[""a""]",16.66686441,250,150,1000,TRUE
404,447576,"[417,417]","[""a"",""f""]",16.66688333,250,150,1,FALSE
405,448581,"[503,503,525]","[""d"",""f"",""a""]",16.66688136,250,150,1011,TRUE
406,449589,"[515,515]","[""a"",""f""]",16.66608475,250,150,1001,TRUE
407,450593,"[468,468,513]","[""d"",""f"",""a""]",16.66555932,250,150,1011,TRUE
408,451594,"[541,541,541]","[""a"",""s"",""d""]",16.66701667,250,150,1110,TRUE
409,452596,"[789,813,813]","[""s"",""a"",""d""]",16.66738983,250,150,1110,TRUE
410,453605,"[601,601]","[""a"",""s""]",16.66838983,250,150,1100,TRUE
411,454610,"[498,498]","[""a"",""f""]",16.66833333,250,150,1001,TRUE
412,455612,"[572,590,590]","[""f"",""a"",""s""]",16.66583051,250,150,1101,TRUE
413,456621,[490],"[""d""]",16.66722034,250,150,10,TRUE
414,457623,"[535,560,560]","[""f"",""a"",""d""]",16.66672881,250,150,1011,TRUE
415,458626,"[462,486]","[""d"",""f""]",16.66868333,250,150,11,TRUE
416,459629,"[442,461]","[""f"",""s""]",16.66666102,250,150,101,TRUE
417,460636,"[474,608]","[""s"",""d""]",16.66681356,250,150,110,TRUE
418,461643,[466],"[""s""]",16.66661667,250,150,100,TRUE
419,462645,[404],"[""d""]",16.66525424,250,150,10,TRUE
420,463653,"[440,440]","[""a"",""s""]",16.66688136,250,150,1100,TRUE
421,464660,"[440,457]","[""f"",""d""]",16.66698333,250,150,11,TRUE
422,465669,[450],"[""f""]",16.66823729,250,150,1,TRUE
423,466677,"[416,456]","[""s"",""f""]",16.66688333,250,150,101,TRUE
424,467684,[392],"[""s""]",16.6669661,250,150,100,TRUE
425,468693,"[515,515,515]","[""a"",""s"",""d""]",16.66749153,250,150,1110,TRUE
426,469693,"[505,505]","[""a"",""d""]",16.66693333,250,150,1010,TRUE
427,470702,"[448,448,448]","[""s"",""d"",""f""]",16.66713559,250,150,111,TRUE
428,471709,"[383,488]","[""s"",""a""]",16.66722034,250,150,1000,FALSE
429,472710,[400],"[""d""]",16.6672,250,150,10,TRUE
430,473717,"[448,471,513,583]","[""a"",""s"",""d"",""f""]",16.66686441,250,150,1101,FALSE
431,474725,"[520,520,543]","[""a"",""d"",""s""]",16.66694915,250,150,1110,TRUE
432,475727,"[475,497,497]","[""f"",""a"",""d""]",16.66551667,250,150,1011,TRUE
433,476733,"[519,519]","[""a"",""d""]",16.66694915,250,150,1010,TRUE
434,477741,"[545,545,545]","[""a"",""d"",""f""]",16.66647458,250,150,1011,TRUE
435,478743,"[561,585]","[""d"",""a""]",16.66706667,250,150,1010,TRUE
436,479749,"[511,511]","[""s"",""d""]",16.66649153,250,150,110,TRUE
437,480757,"[416,433]","[""s"",""d""]",16.66811864,250,150,110,TRUE
438,481760,"[408,432,514]","[""d"",""f"",""a""]",16.66746667,250,150,1011,TRUE
439,482764,"[422,445]","[""d"",""s""]",16.6669322,250,150,110,TRUE
440,483772,"[481,482,482]","[""a"",""d"",""f""]",16.66744068,250,150,1011,TRUE
441,484777,"[489,490,513]","[""a"",""d"",""s""]",16.66811667,250,150,1110,TRUE
442,485781,"[510,510]","[""d"",""f""]",16.66801695,250,150,10,FALSE
443,486790,"[489,489,904]","[""s"",""f"",""d""]",16.66820339,250,150,111,TRUE
444,487794,"[631,631]","[""s"",""f""]",16.66723333,250,150,101,TRUE
445,488798,"[509,532]","[""f"",""d""]",16.66681356,250,150,11,TRUE
446,489806,"[582,599]","[""f"",""a""]",16.66722034,250,150,1001,TRUE
447,490810,"[608,632,632]","[""f"",""a"",""d""]",16.66706667,250,150,1011,TRUE
448,491813,"[621,643,644]","[""f"",""a"",""s""]",16.66601695,250,150,1101,TRUE
449,492821,"[528,528]","[""a"",""d""]",16.66674576,250,150,1010,TRUE
450,493827,"[616,641,641]","[""s"",""a"",""f""]",16.66706667,250,150,1101,TRUE
451,494829,[538],"[""s""]",16.66688136,250,150,100,TRUE
452,495837,"[440,440]","[""s"",""d""]",16.6670339,250,150,110,TRUE
453,496844,"[401,401]","[""a"",""f""]",16.6665,250,150,1001,TRUE
454,497852,"[425,449]","[""d"",""f""]",16.66586441,250,150,11,TRUE
455,498860,"[435,435]","[""s"",""d""]",16.66715254,250,150,110,TRUE
456,499861,[435],"[""a""]",16.66595,250,150,1000,TRUE
457,500869,"[415,439]","[""f"",""d""]",16.66557627,250,150,11,TRUE
458,501877,[407],"[""d""]",16.66679661,250,150,10,TRUE
459,502884,[394],"[""f""]",16.6666,250,150,1,TRUE
460,503893,"[384,403]","[""a"",""f""]",16.66689831,250,150,1001,TRUE
461,504894,"[505,522]","[""s"",""f""]",16.66785,250,150,101,TRUE
462,507995,3101,0,,,,,
463,509006,[],[],16.66786667,250,150,0,
464,510010,"[428,428]","[""a"",""f""]",16.667,250,150,1001,TRUE
465,511011,"[607,607,607]","[""s"",""d"",""f""]",16.6668,250,150,111,TRUE
466,512012,"[449,449,470]","[""a"",""f"",""d""]",16.66615254,250,150,1011,TRUE
467,513021,"[505,545,593,721]","[""a"",""f"",""s"",""a""]",16.66555932,250,150,1101,FALSE
468,514027,"[608,609]","[""a"",""d""]",16.66825,250,150,1010,TRUE
469,515036,"[579,579,681,706]","[""s"",""f"",""f"",""s""]",16.66689831,250,150,101,FALSE
470,516044,"[689,689,706]","[""d"",""f"",""a""]",16.66676667,250,150,1011,TRUE
471,517052,[617],"[""s""]",16.66667797,250,150,100,TRUE
472,518061,"[578,579]","[""a"",""f""]",16.6662,250,150,1001,TRUE
473,519068,[544],"[""s""]",16.66654237,250,150,100,TRUE
474,520077,"[472,496]","[""s"",""f""]",16.66522034,250,150,101,TRUE
475,521078,[560],"[""f""]",16.66833333,250,150,1,TRUE
476,522085,"[512,512]","[""s"",""d""]",16.66694915,250,150,110,TRUE
477,523094,"[593,593]","[""a"",""d""]",16.66635,250,150,1010,TRUE
478,524100,[831],"[""d""]",16.66674576,250,150,10,TRUE
479,525108,"[569,570,593]","[""d"",""f"",""a""]",16.66554237,250,150,1011,TRUE
480,526111,"[506,506]","[""s"",""d""]",16.66595,250,150,110,TRUE
481,527118,"[535,535]","[""d"",""f""]",16.66910169,250,150,11,TRUE
482,528124,"[528,528,543]","[""s"",""d"",""a""]",16.66730508,250,150,1110,TRUE
483,529128,"[483,483,483]","[""a"",""s"",""d""]",16.66701667,250,150,1100,FALSE
484,530133,"[710,711]","[""a"",""s""]",16.66874576,250,150,1100,TRUE
485,531141,"[513,513]","[""s"",""f""]",16.66713559,250,150,101,TRUE
486,532144,"[480,504]","[""a"",""s""]",16.66703333,250,150,1100,TRUE
487,533149,"[729,729,749,749]","[""s"",""f"",""a"",""d""]",16.6669661,250,150,1001,FALSE
488,534158,"[608,608,608]","[""a"",""s"",""d""]",16.6689322,250,150,1110,TRUE
489,535161,"[576,600,600]","[""f"",""a"",""s""]",16.66846667,250,150,1101,TRUE
490,536164,"[459,483,483]","[""d"",""s"",""f""]",16.66530508,250,150,110,FALSE
491,537172,"[513,513]","[""a"",""f""]",16.66732203,250,150,1001,TRUE
492,538177,"[425,448]","[""a"",""f""]",16.66689831,250,150,1001,TRUE
493,539178,"[437,459]","[""d"",""s""]",16.66633333,250,150,110,TRUE
494,540181,"[460,460,460]","[""s"",""d"",""f""]",16.66674576,250,150,111,TRUE
495,541188,"[592,615,639]","[""s"",""f"",""a""]",16.66527119,250,150,1101,TRUE
496,542194,[500],"[""s""]",16.6669,250,150,100,TRUE
497,543196,[417],"[""f""]",16.66874576,250,150,1,TRUE
498,544204,"[576,576,599]","[""d"",""f"",""a""]",16.66527119,250,150,1011,TRUE
499,545211,"[568,568]","[""a"",""f""]",16.66715,250,150,1001,TRUE
500,546220,"[554,554]","[""s"",""f""]",16.66816949,250,150,101,TRUE
501,547227,"[592,616,736,737]","[""d"",""a"",""a"",""d""]",16.6665,250,150,1010,FALSE
502,548232,[568],"[""s""]",16.66647458,250,150,100,TRUE
503,549235,"[500,524,525]","[""f"",""s"",""d""]",16.66732203,250,150,111,TRUE
504,550244,"[658,658,680,880]","[""a"",""f"",""s"",""d""]",16.66871667,250,150,1101,FALSE
505,551252,"[880,904]","[""f"",""a""]",16.66808475,250,150,110,FALSE
506,552260,"[113,113]","[""s"",""d""]",16.66832203,250,150,1,FALSE
507,553263,"[592,680,721,744]","[""a"",""f"",""d"",""s""]",16.66843333,250,150,111,FALSE
508,554268,"[845,869,893]","[""s"",""f"",""a""]",16.66523729,250,150,10,FALSE
509,555276,[49],"[""d""]",16.66584746,250,150,11,FALSE
510,556278,"[657,657,744,808]","[""a"",""f"",""s"",""d""]",16.66846667,250,150,110,FALSE
511,557285,"[713,713]","[""s"",""d""]",16.66459322,250,150,110,TRUE
512,558292,"[585,585]","[""a"",""d""]",16.66630508,250,150,1010,TRUE
513,559294,"[408,448,496]","[""s"",""a"",""d""]",16.66671667,250,150,1100,FALSE
514,560300,"[449,449]","[""s"",""d""]",16.66850847,250,150,110,TRUE
515,561309,[464],"[""f""]",16.66742373,250,150,1,TRUE
516,562311,"[391,497,921]","[""d"",""s"",""f""]",16.66663333,250,150,111,TRUE
517,563316,"[629,646]","[""d"",""a""]",16.66828814,250,150,1010,TRUE
518,564324,[488],"[""a""]",16.66650847,250,150,1000,TRUE
519,565328,"[473,495]","[""s"",""a""]",16.66726667,250,150,1100,TRUE
520,566332,[436],"[""s""]",16.66686441,250,150,100,TRUE
521,567340,"[483,505]","[""a"",""s""]",16.66762712,250,150,1100,TRUE
522,568345,"[497,497,514,514,625]","[""a"",""f"",""s"",""d"",""a""]",16.66646667,250,150,1101,FALSE
523,569347,"[636,636]","[""a"",""f""]",16.66708475,250,150,1001,TRUE
524,570356,"[553,553,576]","[""s"",""f"",""d""]",16.66705085,250,150,111,TRUE
525,571357,[561],"[""f""]",16.66832203,250,150,1,TRUE
526,572361,"[480,498]","[""a"",""s""]",16.66685,250,150,1100,TRUE
527,573364,"[486,486]","[""s"",""f""]",16.66859322,250,150,101,TRUE
528,574372,"[521,521]","[""d"",""f""]",16.66576271,250,150,11,TRUE
529,575378,"[433,450]","[""a"",""s""]",16.66695,250,150,1100,TRUE
530,576380,"[443,443]","[""d"",""f""]",16.66854237,250,150,11,TRUE
531,577389,"[472,496]","[""s"",""a""]",16.66698305,250,150,1100,TRUE
532,578395,[479],"[""d""]",16.66635,250,150,10,TRUE
533,579404,"[506,524]","[""f"",""s""]",16.66676271,250,150,101,TRUE
534,580411,"[473,473]","[""s"",""d""]",16.66548333,250,150,110,TRUE
535,581420,"[496,496]","[""a"",""d""]",16.66701695,250,150,1010,TRUE
536,582427,"[712,712,712]","[""a"",""s"",""f""]",16.66481356,250,150,1101,TRUE
537,583428,"[645,645]","[""a"",""f""]",16.6672,250,150,1001,TRUE
538,584435,"[530,530]","[""a"",""f""]",16.66737288,250,150,1001,TRUE
539,585443,"[497,497]","[""s"",""d""]",16.6670678,250,150,110,TRUE
540,586445,"[443,443,443]","[""a"",""s"",""f""]",16.66833898,250,150,1011,FALSE
541,587445,"[631,631]","[""s"",""f""]",16.66601667,250,150,101,TRUE
542,588453,"[679,704,704]","[""f"",""a"",""d""]",16.66708475,250,150,1011,TRUE
543,589460,[560],"[""s""]",16.66535593,250,150,100,TRUE
544,590462,[544],"[""a""]",16.66736667,250,150,1000,TRUE
545,591468,[535],"[""d""]",16.66718644,250,150,10,TRUE
546,592476,"[481,504]","[""s"",""a""]",16.66916949,250,150,1100,TRUE
547,593478,"[444,464]","[""s"",""d""]",16.66583333,250,150,110,TRUE
548,594484,"[639,639,639]","[""a"",""s"",""f""]",16.66722034,250,150,1101,TRUE
549,595492,"[530,552]","[""f"",""d""]",16.66633898,250,150,11,TRUE
550,596495,"[440,464]","[""s"",""a""]",16.66695,250,150,1100,TRUE
551,597500,"[590,613]","[""a"",""s""]",16.66745763,250,150,1100,TRUE
552,598508,"[451,451]","[""a"",""d""]",16.66825424,250,150,1010,TRUE
553,599512,"[507,507,507]","[""a"",""d"",""f""]",16.6668,250,150,1011,TRUE
554,600516,"[519,519,519]","[""s"",""d"",""f""]",16.66562712,250,150,111,TRUE
555,601521,"[547,547]","[""d"",""f""]",16.66686441,250,150,11,TRUE
556,602524,[484],"[""a""]",16.66725424,250,150,1000,TRUE
557,603528,"[426,426]","[""a"",""f""]",16.66761017,250,150,1001,TRUE
558,604529,"[453,476]","[""a"",""f""]",16.66491667,250,150,1001,TRUE
559,605532,"[469,469]","[""s"",""d""]",16.66674576,250,150,110,TRUE
560,606540,[480],"[""s""]",16.66613559,250,150,100,TRUE
561,607546,"[450,472]","[""a"",""s""]",16.66706667,250,150,1100,TRUE
562,608549,"[508,508,524]","[""a"",""f"",""d""]",16.6669661,250,150,1011,TRUE
563,609556,"[439,464,464]","[""d"",""a"",""f""]",16.66828814,250,150,11,FALSE
564,610562,[432],"[""s""]",16.66665,250,150,100,TRUE
565,611564,[459],"[""d""]",16.66771186,250,150,10,TRUE
566,612572,"[457,474,539]","[""s"",""a"",""d""]",16.667,250,150,1110,TRUE
567,613579,"[449,467]","[""s"",""a""]",16.66821667,250,150,1100,TRUE
568,614588,"[529,553,961]","[""f"",""s"",""d""]",16.66576271,250,150,111,TRUE
569,615591,"[737,737]","[""s"",""f""]",16.66683051,250,150,101,TRUE
570,616596,"[558,558]","[""a"",""s""]",16.66683333,250,150,1100,TRUE
571,617604,"[529,529,529]","[""a"",""s"",""f""]",16.66737288,250,150,1101,TRUE
572,618612,[488],"[""f""]",16.66661667,250,150,1,TRUE
573,619621,"[625,625,625]","[""a"",""s"",""f""]",16.66725424,250,150,1101,TRUE
574,620628,"[520,520]","[""d"",""f""]",16.66657627,250,150,11,TRUE
575,621629,"[448,448,448]","[""s"",""d"",""f""]",16.66833333,250,150,111,TRUE
576,622636,"[464,464]","[""s"",""d""]",16.66766102,250,150,110,TRUE
577,623645,[491],"[""f""]",16.66720339,250,150,1,TRUE
578,624646,"[424,424]","[""a"",""s""]",16.66703333,250,150,1100,TRUE
579,625652,"[463,487,487]","[""s"",""a"",""f""]",16.66718644,250,150,1101,TRUE
580,626660,"[433,456]","[""d"",""s""]",16.66679661,250,150,110,TRUE
581,627663,"[472,472]","[""a"",""s""]",16.66668333,250,150,1100,TRUE
582,628668,"[546,567,567]","[""d"",""a"",""s""]",16.667,250,150,1110,TRUE
583,629676,"[503,523]","[""a"",""f""]",16.66708475,250,150,1001,TRUE
584,630679,"[496,520]","[""d"",""a""]",16.66788333,250,150,1010,TRUE
585,631685,"[472,493]","[""a"",""s""]",16.66679661,250,150,1100,TRUE
586,632692,"[504,504,504]","[""a"",""d"",""f""]",16.66652542,250,150,1011,TRUE
587,633696,"[480,480,496]","[""a"",""f"",""d""]",16.66666667,250,150,1011,TRUE
588,634701,"[565,565]","[""s"",""f""]",16.66684746,250,150,101,TRUE
589,635708,"[520,544]","[""d"",""f""]",16.66664407,250,150,11,TRUE
590,636713,"[529,529,552]","[""d"",""f"",""s""]",16.66691667,250,150,111,TRUE
591,637716,"[484,508]","[""d"",""a""]",16.66859322,250,150,1010,TRUE
592,638724,"[480,504]","[""d"",""f""]",16.66659322,250,150,11,TRUE
593,639730,"[472,496,520]","[""d"",""a"",""s""]",16.66693333,250,150,1110,TRUE
594,640732,"[516,516]","[""s"",""f""]",16.6669661,250,150,101,TRUE
595,641740,[506],"[""d""]",16.66637288,250,150,10,TRUE
596,642746,"[473,520,520]","[""f"",""a"",""d""]",16.66836667,250,150,1011,TRUE
597,643749,"[530,530,548]","[""d"",""f"",""a""]",16.66683051,250,150,1011,TRUE
598,644756,"[489,489,490]","[""a"",""d"",""f""]",16.66722034,250,150,1011,TRUE
599,645763,"[570,570]","[""s"",""f""]",16.66725,250,150,101,TRUE
600,646772,[522],"[""d""]",16.66854237,250,150,10,TRUE
601,647780,"[530,530]","[""a"",""f""]",16.66625,250,150,1001,TRUE
602,648788,"[618,618]","[""s"",""f""]",16.66689831,250,150,101,TRUE
603,649796,"[641,641]","[""a"",""f""]",16.66833898,250,150,1001,TRUE
604,650797,[777],"[""a""]",16.66686667,250,150,1000,TRUE
605,651804,"[511,529,529]","[""f"",""s"",""d""]",16.6669661,250,150,111,TRUE
606,652813,[498],"[""a""]",16.66655,250,150,1000,TRUE
607,653820,"[507,527]","[""d"",""a""]",16.66779661,250,150,1010,TRUE
608,654828,"[521,522,522]","[""s"",""d"",""f""]",16.66589831,250,150,111,TRUE
609,655829,"[489,489]","[""d"",""f""]",16.6682,250,150,11,TRUE
610,656835,"[463,463]","[""a"",""s""]",16.66867797,250,150,1100,TRUE
611,657843,[528],"[""s""]",16.66727119,250,150,100,TRUE
612,658846,[449],"[""a""]",16.66741667,250,150,1000,TRUE
613,659852,"[422,445]","[""s"",""f""]",16.66672881,250,150,101,TRUE
614,660860,"[490,490,491]","[""a"",""d"",""f""]",16.66755932,250,150,1011,TRUE
615,661863,"[479,479]","[""s"",""d""]",16.66565,250,150,110,TRUE
616,662868,[400],"[""a""]",16.66657627,250,150,1000,TRUE
617,663876,"[392,417]","[""s"",""d""]",16.66722034,250,150,110,TRUE
618,664880,"[441,504,546]","[""a"",""s"",""d""]",16.6688,250,150,1100,FALSE
619,665884,"[468,468]","[""d"",""f""]",16.66752542,250,150,11,TRUE
620,666892,[480],"[""s""]",16.66652542,250,150,100,TRUE
621,667896,"[466,466]","[""d"",""f""]",16.66656667,250,150,11,TRUE
622,668900,[460],"[""a""]",16.66710169,250,150,1000,TRUE
623,669908,[513],"[""d""]",16.66630508,250,150,10,TRUE
624,670913,"[512,536]","[""d"",""f""]",16.66696667,250,150,11,TRUE
625,671916,"[597,620,620]","[""f"",""a"",""d""]",16.66722034,250,150,1011,TRUE
626,672920,"[728,747,747]","[""s"",""a"",""f""]",16.66661017,250,150,1101,TRUE
627,673924,"[972,972,990]","[""s"",""f"",""a""]",16.66759322,250,150,1101,TRUE
628,674930,"[641,641,641]","[""s"",""d"",""f""]",16.66691667,250,150,111,TRUE
629,675932,"[589,589]","[""a"",""f""]",16.66567797,250,150,1001,TRUE
630,676940,"[544,544]","[""a"",""s""]",16.667,250,150,1100,TRUE
631,677946,"[568,585,585]","[""a"",""s"",""d""]",16.66675,250,150,1110,TRUE
632,678950,"[579,579]","[""a"",""d""]",16.6669322,250,150,1010,TRUE
633,679955,[641],"[""d""]",16.667,250,150,10,TRUE
634,680963,"[496,520,537]","[""a"",""d"",""s""]",16.66695,250,150,1110,TRUE
635,681972,"[465,465]","[""s"",""d""]",16.66698305,250,150,110,TRUE
636,682980,"[491,513]","[""f"",""s""]",16.66672881,250,150,101,TRUE
637,683982,"[536,561,561]","[""f"",""a"",""d""]",16.66733333,250,150,1011,TRUE
638,684988,[534],"[""s""]",16.66718644,250,150,100,TRUE
639,685996,"[543,567,975]","[""s"",""a"",""d""]",16.66723729,250,150,1110,TRUE
640,686997,"[640,659,929]","[""d"",""f"",""s""]",16.66868333,250,150,111,TRUE
641,688004,"[753,753]","[""d"",""f""]",16.6670678,250,150,11,TRUE
642,689012,[552],"[""s""]",16.66647458,250,150,100,TRUE
643,690013,[480],"[""f""]",16.66831667,250,150,1,TRUE
644,691020,"[546,546]","[""a"",""f""]",16.66640678,250,150,1001,TRUE
645,692029,"[576,576]","[""a"",""s""]",16.66764407,250,150,1100,TRUE
646,693030,[513],"[""f""]",16.66701667,250,150,1,TRUE
647,694036,"[506,506]","[""a"",""f""]",16.66701695,250,150,1001,TRUE
648,695045,"[536,536,536]","[""a"",""s"",""d""]",16.66601695,250,150,1110,TRUE
649,696047,"[536,559,583]","[""s"",""f"",""a""]",16.66708333,250,150,1101,TRUE
650,697052,"[575,575]","[""a"",""s""]",16.66623729,250,150,1100,TRUE
651,698060,"[579,579]","[""a"",""d""]",16.66688136,250,150,1010,TRUE
652,699064,"[553,553,553]","[""a"",""s"",""d""]",16.6674,250,150,1110,TRUE
653,700068,"[550,550]","[""a"",""f""]",16.66713559,250,150,1001,TRUE
654,701076,"[633,633,633]","[""a"",""s"",""f""]",16.66894915,250,150,1101,TRUE
655,702080,"[721,721,745]","[""s"",""f"",""d""]",16.66643333,250,150,111,TRUE
656,703085,[822],"[""d""]",16.66691525,250,150,10,TRUE
657,704092,"[680,680]","[""a"",""d""]",16.66476271,250,150,1010,TRUE
658,705097,[672],"[""d""]",16.66818333,250,150,10,TRUE
659,706100,"[876,876,876]","[""a"",""d"",""f""]",16.66638983,250,150,1011,TRUE
660,707100,[665],"[""a""]",16.66657627,250,150,1000,TRUE
661,708107,"[556,556]","[""s"",""d""]",16.66715254,250,150,110,TRUE
662,709114,[592],"[""a""]",16.66643333,250,150,1000,TRUE
663,710123,"[572,572]","[""a"",""f""]",16.66727119,250,150,1001,TRUE
664,711130,"[580,602]","[""f"",""s""]",16.66548333,250,150,101,TRUE
665,712132,[506],"[""d""]",16.6669661,250,150,10,TRUE
666,713141,"[505,505]","[""a"",""f""]",16.66547458,250,150,1001,TRUE
667,714147,"[553,553]","[""s"",""d""]",16.66763333,250,150,110,TRUE
668,715156,"[530,530,553]","[""a"",""s"",""d""]",16.66733898,250,150,1110,TRUE
669,716164,[488],"[""d""]",16.66695,250,150,10,TRUE
670,717172,[545],"[""a""]",16.66681356,250,150,1000,TRUE
671,718180,"[522,522]","[""a"",""d""]",16.66750847,250,150,1010,TRUE
672,719181,"[513,513]","[""a"",""f""]",16.66743333,250,150,1001,TRUE
673,720188,[528],"[""s""]",16.66645763,250,150,100,TRUE
674,722698,2509,0,,,,,
675,723698,[],[],16.66803333,250,150,0,
676,724702,[455],"[""a""]",16.6670339,250,150,1000,TRUE
677,725708,"[451,492,557]","[""s"",""d"",""a""]",16.66857627,250,150,1110,TRUE
678,726715,"[501,501]","[""a"",""s""]",16.66705,250,150,1100,TRUE
679,727717,"[509,509]","[""s"",""f""]",16.66637288,250,150,101,TRUE
680,728724,[523],"[""d""]",16.66832203,250,150,10,TRUE
681,729731,"[625,625]","[""d"",""f""]",16.66688333,250,150,11,TRUE
682,730740,[554],"[""d""]",16.66501695,250,150,10,TRUE
683,731748,[488],"[""a""]",16.66693333,250,150,1000,TRUE
684,732756,"[537,560,560]","[""a"",""d"",""f""]",16.66691525,250,150,1011,TRUE
685,733764,"[520,520]","[""d"",""f""]",16.6669322,250,150,11,TRUE
686,734765,"[609,609,632]","[""d"",""f"",""a""]",16.66691667,250,150,1011,TRUE
687,735773,"[569,569,569]","[""a"",""s"",""f""]",16.66723729,250,150,1101,TRUE
688,736780,"[505,505]","[""s"",""f""]",16.66661017,250,150,101,TRUE
689,737782,"[601,619]","[""a"",""d""]",16.66833333,250,150,1010,TRUE
690,738789,"[602,602,602]","[""a"",""d"",""f""]",16.66616949,250,150,1011,TRUE
691,739797,"[560,560]","[""s"",""d""]",16.66684746,250,150,110,TRUE
692,740798,[520],"[""s""]",16.66686667,250,150,100,TRUE
693,741805,"[503,521]","[""a"",""d""]",16.66732203,250,150,1010,TRUE
694,742812,"[512,512]","[""s"",""f""]",16.66705085,250,150,101,TRUE
695,743815,"[617,617]","[""d"",""f""]",16.6669,250,150,11,TRUE
696,744820,"[511,511]","[""d"",""f""]",16.66816949,250,150,11,TRUE
697,745828,[521],"[""a""]",16.66718644,250,150,1000,TRUE
698,746832,"[513,513]","[""a"",""d""]",16.66838333,250,150,1010,TRUE
699,747837,"[613,638,638]","[""a"",""d"",""f""]",16.66671186,250,150,1011,TRUE
700,748844,[624],"[""d""]",16.66725424,250,150,10,TRUE
701,749848,"[498,498]","[""d"",""f""]",16.66695,250,150,11,TRUE
702,750853,"[503,503]","[""s"",""d""]",16.66735593,250,150,110,TRUE
703,751861,[473],"[""s""]",16.66664407,250,150,100,TRUE
704,752865,"[840,864,864]","[""a"",""s"",""f""]",16.66871667,250,150,1101,TRUE
705,753868,"[549,572,941]","[""d"",""a"",""f""]",16.66859322,250,150,1011,TRUE
706,754876,"[649,650,985]","[""a"",""d"",""s""]",16.66701695,250,150,1110,TRUE
707,755882,"[634,634]","[""a"",""f""]",16.66623729,250,150,1001,TRUE
708,756893,"[522,544]","[""d"",""a""]",16.66658333,250,150,1010,TRUE
709,757899,"[400,424]","[""a"",""d""]",16.66695,250,150,1010,TRUE
710,758902,"[451,474]","[""s"",""d""]",16.66679661,250,150,110,TRUE
711,759908,[494],"[""a""]",16.66552542,250,150,1000,TRUE
712,760915,"[473,473]","[""a"",""s""]",16.66725,250,150,1100,TRUE
713,761924,"[490,490]","[""a"",""f""]",16.66864407,250,150,1,FALSE
714,762932,"[456,456,480]","[""s"",""f"",""d""]",16.66691667,250,150,111,TRUE
715,763941,"[321,321,338,521]","[""d"",""f"",""s"",""s""]",16.66747458,250,150,100,FALSE
716,764948,"[432,456]","[""a"",""s""]",16.66694915,250,150,1100,TRUE
717,765949,"[481,505,505]","[""a"",""s"",""d""]",16.6672,250,150,1110,TRUE
718,766956,[488],"[""a""]",16.66576271,250,150,1000,TRUE
719,767964,[440],"[""s""]",16.66728814,250,150,100,TRUE
720,768965,[402],"[""f""]",16.66703333,250,150,1,TRUE
721,769973,[696],"[""f""]",16.66774576,250,150,1,TRUE
722,770980,"[452,452]","[""d"",""f""]",16.66666102,250,150,11,TRUE
723,771982,[385],"[""a""]",16.66686667,250,150,1000,TRUE
724,772988,"[423,423,446]","[""a"",""s"",""d""]",16.66642373,250,150,1110,TRUE
725,773996,"[505,505]","[""d"",""f""]",16.6669322,250,150,11,TRUE
726,774999,"[576,576]","[""s"",""d""]",16.66835,250,150,110,TRUE
727,776005,"[606,628]","[""f"",""d""]",16.66728814,250,150,11,TRUE
728,777014,"[471,496,496]","[""s"",""d"",""f""]",16.66791525,250,150,111,TRUE
729,778015,[425],"[""f""]",16.66691667,250,150,1,TRUE
730,779020,[406],"[""a""]",16.66874576,250,150,1000,TRUE
731,780028,"[458,458,458]","[""a"",""d"",""f""]",16.66483051,250,150,1011,TRUE
732,781032,"[514,514,531]","[""a"",""s"",""f""]",16.66715254,250,150,1101,TRUE
733,782033,[437],"[""a""]",16.6667,250,150,1000,TRUE
734,783037,[404],"[""a""]",16.66686441,250,150,1000,TRUE
735,784045,"[359,465]","[""a"",""s""]",16.66537288,250,150,1100,TRUE
736,785049,[432],"[""f""]",16.66568333,250,150,1,TRUE
737,786052,[398],"[""a""]",16.66689831,250,150,1000,TRUE
738,787062,"[432,451,451]","[""a"",""d"",""f""]",16.66701695,250,150,1011,TRUE
739,788066,"[487,504]","[""a"",""f""]",16.66696667,250,150,1001,TRUE
740,789069,"[461,461]","[""a"",""f""]",16.66564407,250,150,1001,TRUE
741,790076,"[625,625,626]","[""a"",""s"",""f""]",16.66688136,250,150,1101,TRUE
742,791082,[544],"[""f""]",16.66666667,250,150,1,TRUE
743,792084,"[477,477]","[""d"",""f""]",16.66571186,250,150,11,TRUE
744,793092,[475],"[""s""]",16.66638983,250,150,100,TRUE
745,794099,[448],"[""s""]",16.66728333,250,150,100,TRUE
746,795108,"[538,539,539]","[""a"",""d"",""f""]",16.66694915,250,150,1011,TRUE
747,796116,[506],"[""d""]",16.6674,250,150,10,TRUE
748,797124,[441],"[""s""]",16.6660339,250,150,100,TRUE
749,798132,[472],"[""d""]",16.66861017,250,150,10,TRUE
750,799133,"[537,556,556]","[""s"",""a"",""f""]",16.66751667,250,150,1101,TRUE
751,800140,"[480,498]","[""d"",""f""]",16.66832203,250,150,11,TRUE
752,801149,[449],"[""d""]",16.66728814,250,150,10,TRUE
753,802149,"[440,459]","[""s"",""a""]",16.66811667,250,150,1100,TRUE
754,803156,"[423,487,591]","[""d"",""s"",""d""]",16.6669661,250,150,10,FALSE
755,804164,"[506,506,632,656]","[""a"",""f"",""f"",""a""]",16.66657627,250,150,1001,FALSE
756,805166,"[616,616,720,744]","[""a"",""s"",""a"",""s""]",16.66695,250,150,1100,FALSE
757,806172,"[680,680,680]","[""a"",""s"",""d""]",16.66823729,250,150,1110,TRUE
758,807180,[537],"[""f""]",16.66501695,250,150,1,TRUE
759,808183,"[634,634,754,754]","[""a"",""s"",""a"",""s""]",16.66665,250,150,1100,FALSE
760,809189,"[671,671,926,950]","[""d"",""f"",""f"",""d""]",16.66669492,250,150,11,FALSE
761,810196,"[778,778]","[""s"",""d""]",16.66584746,250,150,110,TRUE
762,811199,"[89,89,849,849,849]","[""s"",""d"",""a"",""s"",""f""]",16.6672,250,150,1101,FALSE
763,812204,[613],"[""s""]",16.66554237,250,150,100,TRUE
764,813212,"[580,580,873,873]","[""a"",""f"",""a"",""f""]",16.66666102,250,150,1001,FALSE
765,814216,[649],"[""f""]",16.66721667,250,150,1,TRUE
766,815220,"[501,501,501]","[""a"",""s"",""d""]",16.66635593,250,150,1110,TRUE
767,816229,"[602,602,784,784,801]","[""d"",""f"",""a"",""f"",""d""]",16.66666102,250,150,1011,FALSE
768,817233,"[651,651]","[""s"",""f""]",16.66671667,250,150,1101,FALSE
769,818236,"[132,709,732]","[""a"",""s"",""a""]",16.66708475,250,150,100,FALSE
770,819244,[568],"[""a""]",16.66633898,250,150,1000,TRUE
771,820250,"[489,506]","[""f"",""s""]",16.6687,250,150,101,TRUE
772,821252,"[524,524,524]","[""s"",""d"",""f""]",16.66591525,250,150,111,TRUE
773,822260,"[556,556]","[""a"",""d""]",16.66727119,250,150,1010,TRUE
774,823266,[474],"[""a""]",16.66693333,250,150,1000,TRUE
775,824268,"[466,489]","[""a"",""d""]",16.6670339,250,150,1010,TRUE
776,825276,"[528,528]","[""s"",""d""]",16.66669492,250,150,110,TRUE
777,826283,"[519,537,537]","[""d"",""a"",""f""]",16.66588333,250,150,1011,TRUE
778,827285,[473],"[""s""]",16.66613559,250,150,100,TRUE
779,828292,"[416,417]","[""d"",""f""]",16.66718644,250,150,10,FALSE
780,829300,"[578,600,600]","[""f"",""s"",""d""]",16.66686667,250,150,111,TRUE
781,830308,"[497,498]","[""s"",""d""]",16.66566102,250,150,110,TRUE
782,831316,"[490,513,513]","[""d"",""a"",""f""]",16.66671667,250,150,1011,TRUE
783,832324,"[567,591]","[""s"",""f""]",16.66694915,250,150,101,TRUE
784,833332,"[489,514]","[""f"",""d""]",16.66666102,250,150,11,TRUE
785,834333,[465],"[""s""]",16.66835,250,150,100,TRUE
786,835340,[418],"[""d""]",16.66727119,250,150,10,TRUE
787,836348,[409],"[""a""]",16.66830508,250,150,1000,TRUE
788,837350,[345],"[""d""]",16.66711667,250,150,10,TRUE
789,838358,"[439,456,503]","[""d"",""f"",""s""]",16.66589831,250,150,111,TRUE
790,839364,"[647,687,711]","[""s"",""d"",""f""]",16.66633898,250,150,111,TRUE
791,840367,"[528,552,552]","[""f"",""a"",""s""]",16.66678333,250,150,1101,TRUE
792,841372,"[469,488]","[""s"",""a""]",16.66667797,250,150,1100,TRUE
793,842380,"[408,408]","[""a"",""f""]",16.66716949,250,150,1001,TRUE
794,843383,"[552,552,569]","[""a"",""f"",""d""]",16.66755,250,150,1011,TRUE
795,844389,[445],"[""d""]",16.66733898,250,150,10,TRUE
796,845396,[400],"[""s""]",16.66750847,250,150,100,TRUE
797,846400,"[408,408,472,911,935]","[""a"",""f"",""d"",""s"",""f""]",16.66663333,250,150,101,FALSE
798,847404,"[533,557]","[""s"",""d""]",16.66698305,250,150,110,TRUE
799,848413,"[553,553,569]","[""a"",""f"",""s""]",16.66898305,250,150,1101,TRUE
800,849417,"[439,439,440]","[""a"",""s"",""f""]",16.66735,250,150,1101,TRUE
801,850420,"[573,573,573]","[""s"",""d"",""f""]",16.66710169,250,150,111,TRUE
802,851428,"[575,593]","[""d"",""a""]",16.66883051,250,150,1010,TRUE
803,852433,[480],"[""d""]",16.6648,250,150,10,TRUE
804,853436,"[476,494,494]","[""d"",""s"",""f""]",16.66659322,250,150,111,TRUE
805,854445,"[393,393,416]","[""d"",""f"",""s""]",16.66698305,250,150,111,TRUE
806,855450,"[531,531]","[""s"",""f""]",16.66698333,250,150,101,TRUE
807,856452,"[580,580]","[""a"",""f""]",16.6669661,250,150,1001,TRUE
808,857460,"[537,537]","[""s"",""f""]",16.66718644,250,150,101,TRUE
809,858467,[579],"[""f""]",16.66563333,250,150,1,TRUE
810,859468,"[667,667,667]","[""a"",""d"",""f""]",16.66689831,250,150,1011,TRUE
811,860477,"[528,528]","[""s"",""d""]",16.6660678,250,150,110,TRUE
812,861484,"[497,497,497]","[""s"",""d"",""f""]",16.66718333,250,150,111,TRUE
813,862494,"[562,562,585]","[""a"",""s"",""d""]",16.66686441,250,150,1110,TRUE
814,863500,"[528,528,529]","[""s"",""d"",""f""]",16.66466102,250,150,111,TRUE
815,864501,[537],"[""f""]",16.66795,250,150,1,TRUE
816,865509,[472],"[""s""]",16.66638983,250,150,100,TRUE
817,866509,"[496,560,672]","[""d"",""s"",""f""]",16.66801695,250,150,101,FALSE
818,867516,"[648,648,671]","[""a"",""f"",""d""]",16.66615254,250,150,1011,TRUE
819,868517,"[731,753,753]","[""a"",""s"",""d""]",16.66831667,250,150,1110,TRUE
820,869524,"[520,730,752,752]","[""d"",""f"",""s"",""d""]",16.66667797,250,150,111,FALSE
821,870532,[640],"[""s""]",16.66652542,250,150,100,TRUE
822,871534,[508],"[""a""]",16.6673,250,150,1000,TRUE
823,872540,"[447,511]","[""s"",""a""]",16.66727119,250,150,1000,FALSE
824,873549,"[457,481]","[""a"",""d""]",16.66705085,250,150,1010,TRUE
825,874551,"[465,465]","[""s"",""d""]",16.66796667,250,150,110,TRUE
826,875556,"[526,550,568]","[""s"",""a"",""f""]",16.66669492,250,150,1101,TRUE
827,876565,"[512,512]","[""s"",""f""]",16.66662712,250,150,101,TRUE
828,877567,"[520,520]","[""a"",""s""]",16.66838333,250,150,1100,TRUE
829,878573,"[446,468]","[""a"",""f""]",16.6669322,250,150,1001,TRUE
830,879580,"[633,633]","[""s"",""f""]",16.66822034,250,150,101,TRUE
831,880584,"[492,513]","[""s"",""a""]",16.66736667,250,150,1100,TRUE
832,881588,[548],"[""a""]",16.66822034,250,150,1000,TRUE
833,882597,"[428,428]","[""a"",""f""]",16.66679661,250,150,1001,TRUE
834,883601,"[546,546,546]","[""a"",""d"",""f""]",16.66708333,250,150,1011,TRUE
835,884605,"[469,469,492]","[""a"",""f"",""d""]",16.66615254,250,150,1011,TRUE
836,885612,"[505,505]","[""a"",""s""]",16.66498305,250,150,1100,TRUE
837,886618,"[515,560,648]","[""a"",""f"",""d""]",16.66603333,250,150,1010,FALSE
838,887621,[554],"[""a""]",16.66722034,250,150,1000,TRUE
839,888629,[455],"[""s""]",16.66686441,250,150,100,TRUE
840,889634,"[512,552]","[""d"",""a""]",16.66616667,250,150,1010,TRUE
841,890637,"[548,548]","[""a"",""f""]",16.66694915,250,150,1001,TRUE
842,891645,"[568,568]","[""d"",""f""]",16.66811864,250,150,111,FALSE
843,892651,[32],"[""s""]",16.6684,250,150,101,FALSE
844,893661,"[42,59,681,706]","[""f"",""s"",""s"",""d""]",16.66683051,250,150,110,FALSE
845,894668,"[576,600]","[""d"",""f""]",16.66668333,250,150,11,TRUE
846,895676,"[554,554,569]","[""s"",""d"",""f""]",16.66835593,250,150,111,TRUE
847,896684,[449],"[""s""]",16.66616667,250,150,100,TRUE
848,897692,"[496,536,578]","[""s"",""a"",""d""]",16.66818644,250,150,1110,TRUE
849,898701,"[561,561]","[""a"",""f""]",16.66843333,250,150,1001,TRUE
850,899708,"[455,478,518]","[""s"",""d"",""a""]",16.66555932,250,150,1110,TRUE
851,900715,"[528,528]","[""a"",""d""]",16.66535593,250,150,1010,TRUE
852,901718,"[456,480]","[""a"",""s""]",16.66723333,250,150,1100,TRUE
853,902720,"[488,488]","[""s"",""d""]",16.66710169,250,150,110,TRUE
854,903724,"[501,524]","[""d"",""s""]",16.66545763,250,150,110,TRUE
855,904732,"[504,521,569]","[""d"",""f"",""s""]",16.66671186,250,150,111,TRUE
856,905734,"[458,480]","[""s"",""d""]",16.66821667,250,150,110,TRUE
857,906741,"[495,559,582]","[""a"",""d"",""f""]",16.66823729,250,150,1011,TRUE
858,907749,"[607,624]","[""a"",""d""]",16.6680339,250,150,1010,TRUE
859,908751,"[682,682,727]","[""a"",""s"",""f""]",16.66649153,250,150,1101,TRUE
860,909751,[677],"[""f""]",16.66536667,250,150,1,TRUE
861,910756,"[504,549]","[""d"",""a""]",16.66555932,250,150,1010,TRUE
862,911765,"[490,490]","[""s"",""f""]",16.66686441,250,150,101,TRUE
863,912768,"[560,560,560]","[""s"",""d"",""f""]",16.66638333,250,150,111,TRUE
864,913772,"[502,525]","[""a"",""f""]",16.66616949,250,150,1001,TRUE
865,914781,[505],"[""d""]",16.66655932,250,150,10,TRUE
866,915785,[721],"[""f""]",16.66656667,250,150,1,TRUE
867,916788,[436],"[""a""]",16.66701695,250,150,1000,TRUE
868,917796,"[504,545,568]","[""s"",""f"",""d""]",16.66849153,250,150,111,TRUE
869,918801,"[410,410,410]","[""a"",""s"",""d""]",16.66696667,250,150,1100,FALSE
870,919805,[459],"[""d""]",16.6669661,250,150,10,TRUE
871,920812,"[513,559]","[""s"",""d""]",16.66538983,250,150,110,TRUE
872,921818,"[721,745]","[""f"",""d""]",16.66678333,250,150,11,TRUE
873,922821,"[619,642,666]","[""d"",""f"",""a""]",16.6669661,250,150,1011,TRUE
874,923829,"[505,527,551]","[""s"",""a"",""d""]",16.66747458,250,150,1110,TRUE
875,924835,[495],"[""f""]",16.66695,250,150,1,TRUE
876,925836,"[547,547,610]","[""a"",""s"",""d""]",16.66864407,250,150,1110,TRUE
877,926844,"[471,495,495]","[""a"",""s"",""d""]",16.66581356,250,150,1110,TRUE
878,927851,"[504,544]","[""a"",""s""]",16.66623333,250,150,1100,TRUE
879,928860,"[496,514]","[""f"",""a""]",16.66894915,250,150,1001,TRUE
880,929868,"[424,448,512,554,617]","[""s"",""a"",""d"",""f"",""s""]",16.66843333,250,150,1101,FALSE
881,930876,[563],"[""a""]",16.66838983,250,150,1000,TRUE
882,931884,"[459,459]","[""a"",""f""]",16.6670678,250,150,1001,TRUE
883,932885,[449],"[""s""]",16.6684,250,150,100,TRUE
884,933892,[408],"[""d""]",16.66722034,250,150,10,TRUE
885,934900,[435],"[""s""]",16.66818644,250,150,100,TRUE
886,939192,4291,0,,,,,
887,940196,[],[],16.6686,250,150,0,
888,941201,"[524,548,567]","[""a"",""s"",""d""]",16.6660339,250,150,1110,TRUE
889,942202,"[519,520]","[""a"",""d""]",16.66765,250,150,1010,TRUE
890,943204,"[497,518]","[""s"",""d""]",16.66676271,250,150,110,TRUE
891,944213,"[473,515]","[""s"",""a""]",16.66562712,250,150,1100,TRUE
892,945216,"[568,568,568]","[""a"",""s"",""d""]",16.66669492,250,150,1110,TRUE
893,946219,"[509,509]","[""a"",""d""]",16.667,250,150,1010,TRUE
894,947221,"[473,497]","[""s"",""a""]",16.66676271,250,150,1100,TRUE
895,948228,"[398,422]","[""s"",""d""]",16.66735593,250,150,110,TRUE
896,949235,[416],"[""a""]",16.66686441,250,150,1000,TRUE
897,950245,"[432,496]","[""s"",""d""]",16.66881667,250,150,110,TRUE
898,951252,"[480,481]","[""s"",""d""]",16.66789831,250,150,110,TRUE
899,952260,[433],"[""a""]",16.66653333,250,150,1000,TRUE
900,953268,"[499,519]","[""f"",""s""]",16.66708475,250,150,101,TRUE
901,954269,[480],"[""a""]",16.66736667,250,150,1000,TRUE
902,955276,"[560,560]","[""d"",""f""]",16.66657627,250,150,11,TRUE
903,956285,"[608,608,626]","[""a"",""f"",""d""]",16.66722034,250,150,1011,TRUE
904,957286,"[560,560]","[""s"",""f""]",16.6682,250,150,101,TRUE
905,958292,[504],"[""f""]",16.66737288,250,150,1,TRUE
906,959300,"[632,650,650]","[""d"",""a"",""f""]",16.66577966,250,150,1011,TRUE
907,960302,"[537,537,553]","[""a"",""d"",""s""]",16.6668,250,150,1110,TRUE
908,961309,"[598,598,598]","[""a"",""d"",""f""]",16.66669492,250,150,1011,TRUE
909,962316,"[562,562]","[""s"",""f""]",16.66683051,250,150,101,TRUE
910,963319,[569],"[""a""]",16.66698333,250,150,1000,TRUE
911,964324,"[493,517,517]","[""a"",""s"",""d""]",16.66705085,250,150,1110,TRUE
912,965332,"[537,537]","[""a"",""f""]",16.66701695,250,150,1001,TRUE
913,966336,"[553,554,554]","[""a"",""d"",""f""]",16.66731667,250,150,1011,TRUE
914,967342,"[550,550]","[""a"",""s""]",16.66874576,250,150,1100,TRUE
915,968348,[449],"[""d""]",16.66789831,250,150,10,TRUE
916,969352,"[579,580]","[""a"",""d""]",16.66693333,250,150,1010,TRUE
917,970357,"[564,582]","[""a"",""f""]",16.66737288,250,150,1001,TRUE
918,971365,"[592,592]","[""s"",""f""]",16.66786441,250,150,101,TRUE
919,972369,[520],"[""f""]",16.66596667,250,150,1,TRUE
920,973372,"[469,492]","[""a"",""f""]",16.6669322,250,150,1001,TRUE
921,974381,"[524,524]","[""a"",""f""]",16.6669661,250,150,1001,TRUE
922,975386,"[512,512,903]","[""a"",""f"",""s""]",16.66693333,250,150,1101,TRUE
923,976390,[585],"[""s""]",16.66727119,250,150,100,TRUE
924,977396,"[503,527]","[""s"",""f""]",16.66579661,250,150,101,TRUE
925,978403,"[536,554]","[""a"",""f""]",16.66561667,250,150,1001,TRUE
926,979404,[458],"[""d""]",16.66701695,250,150,10,TRUE
927,980412,"[489,489,512]","[""d"",""f"",""s""]",16.66883051,250,150,111,TRUE
928,981419,[440],"[""f""]",16.666,250,150,1,TRUE
929,982428,[443],"[""s""]",16.6660678,250,150,100,TRUE
930,983436,"[449,730]","[""s"",""a""]",16.66708475,250,150,1100,TRUE
931,984436,"[624,648,648]","[""a"",""s"",""f""]",16.66655,250,150,1101,TRUE
932,985444,[497],"[""f""]",16.66694915,250,150,1,TRUE
933,986453,"[505,506,506]","[""s"",""d"",""f""]",16.66543333,250,150,111,TRUE
934,987460,[472],"[""a""]",16.66664407,250,150,1000,TRUE
935,988468,[522],"[""s""]",16.66672881,250,150,100,TRUE
936,989470,"[440,458]","[""a"",""f""]",16.66891667,250,150,1001,TRUE
937,990476,[473],"[""d""]",16.6670339,250,150,10,TRUE
938,991484,"[465,466]","[""d"",""f""]",16.66752542,250,150,11,TRUE
939,992486,"[451,473]","[""s"",""f""]",16.66863333,250,150,101,TRUE
940,993492,"[551,551,568]","[""a"",""f"",""d""]",16.66883051,250,150,1011,TRUE
941,994500,"[489,513]","[""s"",""d""]",16.66640678,250,150,110,TRUE
942,995503,"[458,459]","[""a"",""f""]",16.666,250,150,1001,TRUE
943,996509,"[476,495,495]","[""a"",""s"",""f""]",16.6660678,250,150,1101,TRUE
944,997517,"[497,497,515]","[""s"",""f"",""d""]",16.66676271,250,150,111,TRUE
945,998520,"[616,616,640]","[""d"",""f"",""a""]",16.6658,250,150,1011,TRUE
946,999524,"[616,616]","[""a"",""f""]",16.66672881,250,150,1001,TRUE
947,1000533,"[521,521,521]","[""a"",""s"",""f""]",16.66694915,250,150,1101,TRUE
948,1001536,[472],"[""s""]",16.66725,250,150,100,TRUE
949,1002540,"[564,584,584]","[""s"",""a"",""f""]",16.66781356,250,150,1101,TRUE
950,1003548,"[528,547]","[""d"",""f""]",16.66698305,250,150,111,FALSE
951,1004553,"[185,691,691,712,920,944]","[""s"",""a"",""s"",""f"",""f"",""d""]",16.66816667,250,150,1011,FALSE
952,1005556,"[3,756,779]","[""a"",""d"",""f""]",16.66764407,250,150,1011,TRUE
953,1006565,[656],"[""s""]",16.66586441,250,150,100,TRUE
954,1007569,[648],"[""s""]",16.66618644,250,150,100,TRUE
955,1008570,"[501,501]","[""s"",""d""]",16.66826667,250,150,110,TRUE
956,1009572,"[691,691]","[""s"",""d""]",16.66528814,250,150,110,TRUE
957,1010580,[592],"[""d""]",16.66667797,250,150,10,TRUE
958,1011587,[519],"[""s""]",16.66688333,250,150,100,TRUE
959,1012588,[530],"[""f""]",16.6670339,250,150,1,TRUE
960,1013598,"[433,457,457]","[""a"",""s"",""f""]",16.6679322,250,150,1100,FALSE
961,1014603,"[535,535,535]","[""a"",""s"",""f""]",16.66886667,250,150,1101,TRUE
962,1015612,"[532,532]","[""d"",""f""]",16.66722034,250,150,11,TRUE
963,1016620,"[440,464]","[""s"",""a""]",16.66522034,250,150,1100,TRUE
964,1017628,"[496,514]","[""f"",""a""]",16.6667,250,150,1001,TRUE
965,1018637,"[507,529]","[""f"",""a""]",16.66561017,250,150,1001,TRUE
966,1019637,[528],"[""f""]",16.667,250,150,1,TRUE
967,1020639,"[560,560,560,944]","[""s"",""d"",""f"",""d""]",16.66694915,250,150,111,FALSE
968,1021645,[8],"[""s""]",16.66784746,250,150,101,FALSE
969,1022653,[],[],16.66867797,250,150,11,FALSE
970,1023654,[],[],16.66835,250,150,10,FALSE
971,1024661,"[151,824,824]","[""d"",""s"",""f""]",16.66710169,250,150,111,TRUE
972,1025668,[],[],16.66698305,250,150,1110,FALSE
973,1026670,[],[],16.66533333,250,150,110,FALSE
974,1027677,[],[],16.66532203,250,150,1,FALSE
975,1028685,"[688,688]","[""a"",""d""]",16.666,250,150,1011,FALSE
976,1029687,[583],"[""f""]",16.66638333,250,150,1,TRUE
977,1030694,"[470,487]","[""d"",""s""]",16.66611864,250,150,110,TRUE
978,1031701,"[431,431]","[""a"",""f""]",16.66852542,250,150,111,FALSE
979,1032704,[],[],16.6651,250,150,110,FALSE
980,1033704,[],[],16.66884746,250,150,1001,FALSE
981,1034708,[],[],16.66623729,250,150,1001,FALSE
982,1035718,"[586,608]","[""f"",""s""]",16.66676271,250,150,101,TRUE
983,1036721,"[503,521,521]","[""s"",""a"",""d""]",16.66695,250,150,1110,TRUE
984,1037725,"[524,548,548]","[""f"",""a"",""s""]",16.66701695,250,150,1101,TRUE
985,1038732,"[440,458,458]","[""s"",""d"",""f""]",16.66627119,250,150,111,TRUE
986,1039737,"[473,520,538,776]","[""s"",""a"",""f"",""s""]",16.66696667,250,150,1101,FALSE
987,1040741,"[620,621]","[""d"",""f""]",16.66701695,250,150,11,TRUE
988,1041748,"[544,568,689,689]","[""a"",""s"",""a"",""s""]",16.66688136,250,150,1101,FALSE
989,1042754,"[129,892,913]","[""f"",""a"",""d""]",16.66672881,250,150,1010,FALSE
990,1043755,"[660,660]","[""a"",""s""]",16.66818333,250,150,1100,TRUE
991,1044758,"[690,810,898]","[""a"",""a"",""d""]",16.66637288,250,150,1010,FALSE
992,1045763,"[696,743,743]","[""d"",""a"",""s""]",16.66671186,250,150,1110,TRUE
993,1046771,"[561,688,753]","[""a"",""a"",""f""]",16.66698333,250,150,1001,FALSE
994,1047773,"[651,748,834]","[""d"",""d"",""a""]",16.66691525,250,150,1010,FALSE
995,1048781,"[640,640]","[""a"",""f""]",16.66672881,250,150,1001,TRUE
996,1049788,"[569,592]","[""s"",""f""]",16.66706667,250,150,101,TRUE
997,1050795,"[562,562,578]","[""d"",""f"",""a""]",16.667,250,150,1011,TRUE
998,1051797,"[722,722,745]","[""a"",""f"",""d""]",16.66847458,250,150,1011,TRUE
999,1052804,"[567,591]","[""a"",""s""]",16.66875,250,150,1100,TRUE
1000,1053812,"[633,657]","[""a"",""s""]",16.66667797,250,150,1100,TRUE
1001,1054821,[588],"[""s""]",16.66645763,250,150,100,TRUE
1002,1055821,[616],"[""d""]",16.66833333,250,150,10,TRUE
1003,1056829,"[530,530]","[""a"",""s""]",16.66669492,250,150,1100,TRUE
1004,1057837,"[464,464,481]","[""d"",""f"",""s""]",16.66877966,250,150,111,TRUE
1005,1058838,"[593,593,593]","[""a"",""s"",""d""]",16.6685,250,150,1110,TRUE
1006,1059844,"[494,511]","[""a"",""d""]",16.66715254,250,150,10,FALSE
1007,1060853,"[594,594]","[""a"",""f""]",16.6680339,250,150,1001,TRUE
1008,1061854,"[528,528]","[""a"",""f""]",16.66916667,250,150,1001,TRUE
1009,1062860,"[559,559,582]","[""a"",""d"",""s""]",16.66677966,250,150,1110,TRUE
1010,1063869,"[553,576,593]","[""f"",""a"",""d""]",16.6670678,250,150,1011,TRUE
1011,1064871,"[643,643]","[""a"",""d""]",16.66635,250,150,1010,TRUE
1012,1065877,"[544,544,544]","[""a"",""s"",""f""]",16.66733898,250,150,1101,TRUE
1013,1066884,"[617,617]","[""a"",""f""]",16.66874576,250,150,1001,TRUE
1014,1067888,"[528,552,552]","[""a"",""s"",""d""]",16.66595,250,150,1110,TRUE
1015,1068892,"[533,533,550]","[""d"",""f"",""s""]",16.66750847,250,150,111,TRUE
1016,1069900,[528],"[""s""]",16.66662712,250,150,100,TRUE
1017,1070904,"[573,573,573]","[""a"",""s"",""d""]",16.66679661,250,150,1110,TRUE
1018,1071905,[509],"[""s""]",16.66886667,250,150,100,TRUE
1019,1072909,"[478,500]","[""a"",""s""]",16.66813559,250,150,1100,TRUE
1020,1073916,"[456,480]","[""f"",""d""]",16.66833898,250,150,11,TRUE
1021,1074921,[489],"[""a""]",16.66635,250,150,1000,TRUE
1022,1075924,"[516,540]","[""s"",""a""]",16.66837288,250,150,1100,TRUE
1023,1076933,"[497,538,538,601]","[""f"",""a"",""s"",""f""]",16.66732203,250,150,1101,FALSE
1024,1077936,"[576,576]","[""a"",""s""]",16.66567797,250,150,1100,TRUE
1025,1078938,"[590,590,590]","[""s"",""d"",""f""]",16.66695,250,150,111,TRUE
1026,1079940,"[491,491,491]","[""s"",""d"",""f""]",16.66818644,250,150,111,TRUE
1027,1080948,[560],"[""f""]",16.6669322,250,150,1,TRUE
1028,1081955,[473],"[""a""]",16.66705,250,150,1000,TRUE
1029,1082957,"[577,617]","[""a"",""f""]",16.66674576,250,150,1001,TRUE
1030,1083964,"[648,689]","[""a"",""s""]",16.66947458,250,150,1100,TRUE
1031,1084971,[562],"[""a""]",16.66798333,250,150,1000,TRUE
1032,1085980,"[610,650,737]","[""a"",""s"",""d""]",16.66745763,250,150,1110,TRUE
1033,1086988,"[712,752,883]","[""a"",""s"",""f""]",16.66686667,250,150,1101,TRUE
1034,1087994,"[740,826,891]","[""d"",""s"",""a""]",16.66515254,250,150,1110,TRUE
1035,1088996,"[755,820]","[""s"",""f""]",16.66649153,250,150,101,TRUE
1036,1090004,"[657,657,722]","[""a"",""s"",""d""]",16.66747458,250,150,1110,TRUE
1037,1091005,[545],"[""s""]",16.66836667,250,150,100,TRUE
1038,1092009,"[584,672,697]","[""d"",""s"",""a""]",16.66701695,250,150,1110,TRUE
1039,1093012,"[580,620]","[""d"",""s""]",16.66732203,250,150,110,TRUE
1040,1094021,"[673,756,842]","[""a"",""d"",""f""]",16.66730508,250,150,1011,TRUE
1041,1095022,[713],"[""f""]",16.66741667,250,150,1011,FALSE
1042,1096029,"[121,719]","[""d"",""s""]",16.66676271,250,150,100,FALSE
1043,1097037,[552],"[""s""]",16.667,250,150,100,TRUE
1044,1098045,"[568,650,738]","[""s"",""d"",""f""]",16.66555,250,150,111,TRUE
1045,1099053,"[609,679,807]","[""f"",""d"",""a""]",16.66669492,250,150,1011,TRUE
1046,1100055,"[640,720,848]","[""a"",""d"",""f""]",16.6671,250,150,1011,TRUE
1047,1101061,"[686,773]","[""d"",""a""]",16.66728814,250,150,1010,TRUE
1048,1102068,"[632,696]","[""s"",""f""]",16.66694915,250,150,101,TRUE
1049,1103072,"[506,609]","[""f"",""s""]",16.66726667,250,150,101,TRUE
1050,1104077,"[598,701]","[""d"",""f""]",16.66698305,250,150,11,TRUE
1051,1105084,[560],"[""a""]",16.66654237,250,150,1000,TRUE
1052,1106088,[513],"[""d""]",16.66671667,250,150,10,TRUE
1053,1107093,"[574,684,791]","[""d"",""s"",""a""]",16.66688136,250,150,1110,TRUE
1054,1108101,"[559,618]","[""s"",""f""]",16.66818644,250,150,101,TRUE
1055,1109105,"[530,616]","[""f"",""d""]",16.66705,250,150,11,TRUE
1056,1110108,"[508,620,660]","[""a"",""s"",""d""]",16.66840678,250,150,1110,TRUE
1057,1111116,[482],"[""a""]",16.66867797,250,150,1000,TRUE
1058,1112122,"[434,543]","[""f"",""s""]",16.66848333,250,150,101,TRUE
1059,1113125,"[602,762]","[""a"",""s""]",16.66722034,250,150,1100,TRUE
1060,1114132,"[511,609]","[""f"",""s""]",16.66766102,250,150,101,TRUE
1061,1115139,[504],"[""d""]",16.66821667,250,150,10,TRUE
1062,1116140,[467],"[""a""]",16.66681356,250,150,1000,TRUE
1063,1117148,"[672,712]","[""s"",""d""]",16.66815254,250,150,110,TRUE
1064,1118155,"[531,577]","[""d"",""a""]",16.66688136,250,150,1010,TRUE
1065,1119156,[508],"[""f""]",16.66643333,250,150,1,TRUE
1066,1120164,"[483,529]","[""a"",""s""]",16.66589831,250,150,1100,TRUE
1067,1121172,"[496,608,672]","[""f"",""s"",""a""]",16.66701667,250,150,1101,TRUE
1068,1122180,[552],"[""f""]",16.66649153,250,150,1,TRUE
1069,1123188,"[745,809,849]","[""f"",""d"",""s""]",16.66694915,250,150,111,TRUE
1070,1124189,[648],"[""f""]",16.66836667,250,150,1,TRUE
1071,1125196,"[600,688,728]","[""a"",""d"",""f""]",16.66684746,250,150,1011,TRUE
1072,1126204,"[624,663,705]","[""s"",""d"",""f""]",16.66720339,250,150,111,TRUE
1073,1127205,[489],"[""f""]",16.66564407,250,150,1,TRUE
1074,1128206,"[442,545,656]","[""f"",""d"",""a""]",16.6667,250,150,1010,FALSE
1075,1129213,"[489,489]","[""a"",""d""]",16.66666102,250,150,10,FALSE
1076,1130220,"[550,614,634]","[""d"",""s"",""a""]",16.66713559,250,150,1110,TRUE
1077,1131222,[482],"[""a""]",16.66686667,250,150,1000,TRUE
1078,1132229,"[545,610]","[""a"",""s""]",16.66674576,250,150,1100,TRUE
1079,1133237,"[433,498]","[""a"",""f""]",16.66649153,250,150,1001,TRUE
1080,1134239,"[504,616,680]","[""f"",""d"",""s""]",16.66691667,250,150,111,TRUE
1081,1135244,"[582,686,775]","[""d"",""s"",""a""]",16.66667797,250,150,1110,TRUE
1082,1136252,"[537,624]","[""a"",""d""]",16.66691525,250,150,1010,TRUE
1083,1137255,[561],"[""a""]",16.66586667,250,150,1000,TRUE
1084,1138260,[478],"[""d""]",16.66694915,250,150,10,TRUE
1085,1139268,"[481,546]","[""a"",""s""]",16.6669322,250,150,1100,TRUE
1086,1140272,"[465,465]","[""d"",""f""]",16.66625424,250,150,11,TRUE
1087,1141273,"[494,580,693]","[""f"",""d"",""a""]",16.66708333,250,150,1011,TRUE
1088,1142280,"[652,735,735]","[""f"",""a"",""s""]",16.66588136,250,150,1101,TRUE
1089,1143284,"[565,606]","[""a"",""s""]",16.66837288,250,150,1100,TRUE
1090,1144289,"[584,624]","[""a"",""s""]",16.66741667,250,150,1100,TRUE
1091,1145293,[540],"[""a""]",16.6669661,250,150,1000,TRUE
1092,1146300,"[680,727,831]","[""a"",""s"",""f""]",16.66689831,250,150,1101,TRUE
1093,1147306,[576],"[""s""]",16.66698333,250,150,100,TRUE
1094,1148309,"[579,683]","[""f"",""a""]",16.66727119,250,150,1001,TRUE
1095,1149317,"[599,774]","[""s"",""f""]",16.66694915,250,150,101,TRUE
1096,1150323,"[623,784,944]","[""f"",""s"",""a""]",16.6671,250,150,1101,TRUE
1097,1151324,"[612,793,937]","[""a"",""s"",""d""]",16.66669492,250,150,1110,TRUE
